trial_type;choice;rt;condition
ddm;1;0.411;clean
ddm;0;0.503;clean
ddm;1;0.905;clean
ddm;1;0.637;clean
ddm;1;0.365;clean
ddm;0;0.492;clean
ddm;1;0.615;clean
ddm;1;0.45999999999999996;clean
ddm;0;0.476;clean
ddm;0;0.712;clean
ddm;0;0.362;clean
ddm;1;0.382;clean
ddm;0;0.998;clean
ddm;1;0.9510000000000001;clean
ddm;1;0.724;clean
ddm;0;0.419;clean
ddm;1;0.498;clean
ddm;0;0.52;clean
ddm;0;0.499;clean
ddm;1;0.482;clean
ddm;1;0.6579999999999999;clean
ddm;1;0.786;clean
ddm;1;0.534;clean
ddm;1;0.556;clean
ddm;0;0.44499999999999995;clean
ddm;1;0.427;clean
ddm;1;0.5449999999999999;clean
ddm;1;0.5800000000000001;clean
ddm;1;0.779;clean
ddm;0;0.615;clean
ddm;1;0.513;clean
ddm;0;0.441;clean
ddm;1;0.738;clean
ddm;0;0.5700000000000001;clean
ddm;1;0.349;clean
ddm;1;0.477;clean
ddm;0;0.319;clean
ddm;1;0.371;clean
ddm;1;0.613;clean
ddm;0;0.766;clean
ddm;1;0.36;clean
ddm;0;0.33299999999999996;clean
ddm;1;0.544;clean
ddm;0;0.46299999999999997;clean
ddm;0;0.348;clean
ddm;1;0.7090000000000001;clean
ddm;1;0.613;clean
ddm;1;0.385;clean
ddm;0;0.504;clean
ddm;1;0.44499999999999995;clean
ddm;1;0.407;clean
ddm;1;0.398;clean
ddm;0;0.724;clean
ddm;0;0.6890000000000001;clean
ddm;1;0.554;clean
ddm;0;0.443;clean
ddm;1;0.322;clean
ddm;1;0.509;clean
ddm;1;0.419;clean
ddm;0;0.565;clean
ddm;0;0.774;clean
ddm;1;0.347;clean
ddm;0;0.399;clean
ddm;0;0.404;clean
ddm;0;0.469;clean
ddm;0;0.613;clean
ddm;1;0.769;clean
ddm;1;0.589;clean
ddm;1;0.46699999999999997;clean
ddm;0;0.44799999999999995;clean
ddm;1;0.378;clean
ddm;1;0.6699999999999999;clean
ddm;1;0.414;clean
ddm;1;0.524;clean
ddm;0;0.7030000000000001;clean
ddm;1;0.657;clean
ddm;1;0.954;clean
ddm;1;0.9099999999999999;clean
ddm;1;0.403;clean
ddm;1;0.498;clean
ddm;1;0.645;clean
ddm;1;0.8500000000000001;clean
ddm;1;0.434;clean
ddm;1;0.507;clean
ddm;1;0.649;clean
ddm;1;0.356;clean
ddm;0;0.488;clean
ddm;1;0.351;clean
ddm;1;0.356;clean
ddm;1;0.434;clean
ddm;0;0.562;clean
ddm;1;0.5760000000000001;clean
ddm;1;0.45399999999999996;clean
ddm;1;0.404;clean
ddm;1;0.386;clean
ddm;0;0.353;clean
ddm;0;0.6579999999999999;clean
ddm;0;0.33099999999999996;clean
ddm;0;0.423;clean
ddm;1;0.476;clean
ddm;1;0.33699999999999997;clean
ddm;1;0.657;clean
ddm;1;0.376;clean
ddm;1;0.569;clean
ddm;0;0.641;clean
ddm;1;0.391;clean
ddm;0;0.54;clean
ddm;1;0.599;clean
ddm;0;0.392;clean
ddm;1;0.367;clean
ddm;0;0.363;clean
ddm;1;0.523;clean
ddm;0;0.577;clean
ddm;0;0.44699999999999995;clean
ddm;0;0.769;clean
ddm;1;0.434;clean
ddm;1;0.372;clean
ddm;0;0.415;clean
ddm;1;0.45199999999999996;clean
ddm;0;0.5449999999999999;clean
ddm;1;0.527;clean
ddm;0;0.8240000000000001;clean
ddm;0;0.407;clean
ddm;0;0.769;clean
ddm;1;0.533;clean
ddm;1;0.604;clean
ddm;1;0.399;clean
ddm;0;0.509;clean
ddm;1;0.387;clean
ddm;1;0.714;clean
ddm;0;0.511;clean
ddm;1;0.357;clean
ddm;1;0.796;clean
ddm;1;0.484;clean
ddm;1;0.34299999999999997;clean
ddm;1;0.434;clean
ddm;0;0.352;clean
ddm;0;0.363;clean
ddm;1;0.585;clean
ddm;1;0.396;clean
ddm;1;0.509;clean
ddm;1;0.382;clean
ddm;0;0.432;clean
ddm;1;0.438;clean
ddm;1;0.347;clean
ddm;0;0.41;clean
ddm;0;0.471;clean
ddm;1;0.634;clean
ddm;0;1.338;clean
ddm;0;0.5489999999999999;clean
ddm;1;0.634;clean
ddm;0;0.32999999999999996;clean
ddm;1;0.33999999999999997;clean
ddm;1;0.742;clean
ddm;1;0.798;clean
ddm;1;0.402;clean
ddm;1;0.4;clean
ddm;1;0.5549999999999999;clean
ddm;0;0.44899999999999995;clean
ddm;0;0.408;clean
ddm;1;0.97;clean
ddm;1;0.483;clean
ddm;0;0.369;clean
ddm;0;0.532;clean
ddm;0;0.6819999999999999;clean
ddm;1;0.964;clean
ddm;1;0.379;clean
ddm;1;0.364;clean
ddm;1;0.6719999999999999;clean
ddm;1;0.47;clean
ddm;1;0.347;clean
ddm;0;0.469;clean
ddm;1;0.516;clean
ddm;1;0.46199999999999997;clean
ddm;1;0.44499999999999995;clean
ddm;0;0.581;clean
ddm;1;0.484;clean
ddm;1;0.98;clean
ddm;1;0.733;clean
ddm;1;0.427;clean
ddm;1;1.367;clean
ddm;1;0.71;clean
ddm;0;0.413;clean
ddm;0;0.677;clean
ddm;0;0.44599999999999995;clean
ddm;1;0.382;clean
ddm;0;0.368;clean
ddm;0;0.4;clean
ddm;1;0.404;clean
ddm;1;0.45499999999999996;clean
ddm;0;0.712;clean
ddm;0;0.394;clean
ddm;0;0.42;clean
ddm;1;0.419;clean
ddm;0;0.765;clean
ddm;0;0.44699999999999995;clean
ddm;0;0.352;clean
ddm;0;0.408;clean
ddm;1;0.768;clean
ddm;0;0.444;clean
ddm;0;0.9770000000000001;clean
ddm;1;0.702;clean
ddm;0;0.428;clean
ddm;1;0.384;clean
ddm;0;1.6260000000000001;clean
ddm;0;0.8620000000000001;clean
ddm;1;0.5449999999999999;clean
ddm;0;0.5700000000000001;clean
ddm;0;0.44999999999999996;clean
ddm;1;1.062;clean
ddm;1;0.546;clean
ddm;0;0.489;clean
ddm;1;0.442;clean
ddm;0;0.683;clean
ddm;1;0.485;clean
ddm;0;0.7070000000000001;clean
ddm;0;0.434;clean
ddm;0;0.485;clean
ddm;0;0.472;clean
ddm;1;1.09;clean
ddm;0;0.472;clean
ddm;0;0.7929999999999999;clean
ddm;1;0.8009999999999999;clean
ddm;0;0.423;clean
ddm;1;0.512;clean
ddm;1;0.5409999999999999;clean
ddm;1;0.471;clean
ddm;0;0.669;clean
ddm;1;0.43;clean
ddm;0;0.5469999999999999;clean
ddm;1;0.386;clean
ddm;0;0.413;clean
ddm;1;0.33099999999999996;clean
ddm;1;0.542;clean
ddm;0;0.34199999999999997;clean
ddm;1;0.788;clean
ddm;1;0.532;clean
ddm;1;0.328;clean
ddm;1;0.492;clean
ddm;0;0.427;clean
ddm;0;0.7070000000000001;clean
ddm;1;0.9730000000000001;clean
ddm;0;0.396;clean
ddm;1;0.393;clean
ddm;1;0.893;clean
ddm;0;0.62;clean
ddm;0;0.663;clean
ddm;1;1.6840000000000002;clean
ddm;0;0.355;clean
ddm;0;0.471;clean
ddm;1;0.424;clean
ddm;1;0.381;clean
ddm;1;1.054;clean
ddm;1;0.841;clean
ddm;1;0.517;clean
ddm;1;0.5840000000000001;clean
ddm;1;0.49;clean
ddm;1;0.44599999999999995;clean
ddm;0;0.366;clean
ddm;0;0.563;clean
ddm;1;0.418;clean
ddm;0;0.9019999999999999;clean
ddm;1;0.414;clean
ddm;1;0.45499999999999996;clean
ddm;1;0.442;clean
ddm;0;0.394;clean
ddm;1;0.368;clean
ddm;0;0.503;clean
ddm;0;0.532;clean
ddm;0;0.592;clean
ddm;0;0.677;clean
ddm;1;0.9630000000000001;clean
ddm;0;0.424;clean
ddm;0;0.414;clean
ddm;1;0.393;clean
ddm;0;0.355;clean
ddm;1;0.5;clean
ddm;1;0.437;clean
ddm;0;0.44;clean
ddm;0;0.581;clean
ddm;1;0.40599999999999997;clean
ddm;1;0.563;clean
ddm;1;0.423;clean
ddm;1;0.5820000000000001;clean
ddm;0;0.657;clean
ddm;0;0.398;clean
ddm;1;0.748;clean
ddm;1;0.386;clean
ddm;1;0.505;clean
ddm;1;0.418;clean
ddm;1;0.596;clean
ddm;1;0.40499999999999997;clean
ddm;0;0.442;clean
ddm;1;0.537;clean
ddm;0;0.428;clean
ddm;0;0.399;clean
ddm;0;0.7050000000000001;clean
ddm;1;0.6819999999999999;clean
ddm;1;0.434;clean
ddm;1;0.33399999999999996;clean
ddm;0;0.357;clean
ddm;1;0.732;clean
ddm;1;0.419;clean
ddm;1;0.724;clean
ddm;0;0.5569999999999999;clean
ddm;1;0.362;clean
ddm;0;0.46099999999999997;clean
ddm;0;0.6579999999999999;clean
ddm;0;0.7130000000000001;clean
ddm;1;0.377;clean
ddm;1;0.398;clean
ddm;1;1.108;clean
ddm;1;0.482;clean
ddm;0;0.407;clean
ddm;1;0.46199999999999997;clean
ddm;1;0.382;clean
ddm;1;1.076;clean
ddm;1;0.396;clean
ddm;1;0.5509999999999999;clean
ddm;1;0.837;clean
ddm;1;0.487;clean
ddm;1;0.37;clean
ddm;1;0.829;clean
ddm;0;0.537;clean
ddm;1;0.389;clean
ddm;1;0.361;clean
ddm;0;0.499;clean
ddm;1;0.505;clean
ddm;0;0.45599999999999996;clean
ddm;1;0.8899999999999999;clean
ddm;1;0.596;clean
ddm;1;0.392;clean
ddm;1;0.42;clean
ddm;0;0.529;clean
ddm;0;0.491;clean
ddm;1;0.804;clean
ddm;0;0.356;clean
ddm;1;0.45899999999999996;clean
ddm;0;0.516;clean
ddm;0;0.36;clean
ddm;0;0.766;clean
ddm;0;0.438;clean
ddm;1;0.354;clean
ddm;0;1.281;clean
ddm;0;0.319;clean
ddm;0;0.495;clean
ddm;1;0.7929999999999999;clean
ddm;1;0.33999999999999997;clean
ddm;1;0.38;clean
ddm;1;0.499;clean
ddm;0;0.657;clean
ddm;0;0.382;clean
ddm;1;0.357;clean
ddm;1;0.46499999999999997;clean
ddm;0;0.355;clean
ddm;1;0.435;clean
ddm;1;0.479;clean
ddm;1;0.875;clean
ddm;1;0.504;clean
ddm;0;1.048;clean
ddm;1;0.994;clean
ddm;0;0.496;clean
ddm;1;0.507;clean
ddm;1;0.498;clean
ddm;0;0.56;clean
ddm;1;0.36;clean
ddm;0;0.505;clean
ddm;1;0.378;clean
ddm;0;0.44999999999999996;clean
ddm;0;0.502;clean
ddm;0;0.516;clean
ddm;1;0.55;clean
ddm;0;0.421;clean
ddm;1;0.438;clean
ddm;1;0.345;clean
ddm;1;0.411;clean
ddm;0;0.384;clean
ddm;1;0.775;clean
ddm;1;1.083;clean
ddm;1;0.679;clean
ddm;1;0.364;clean
ddm;0;0.517;clean
ddm;1;0.495;clean
ddm;0;0.6839999999999999;clean
ddm;1;0.386;clean
ddm;1;0.621;clean
ddm;1;0.4;clean
ddm;1;0.396;clean
ddm;0;0.853;clean
ddm;0;0.861;clean
ddm;1;1.193;clean
ddm;1;0.475;clean
ddm;1;0.815;clean
ddm;1;1.135;clean
ddm;1;0.44999999999999996;clean
ddm;0;0.556;clean
ddm;1;0.821;clean
ddm;1;0.602;clean
ddm;1;0.508;clean
ddm;0;0.631;clean
ddm;1;0.427;clean
ddm;0;0.44699999999999995;clean
ddm;1;0.402;clean
ddm;1;1.1300000000000001;clean
ddm;1;0.5740000000000001;clean
ddm;0;0.368;clean
ddm;1;0.391;clean
ddm;0;0.773;clean
ddm;1;0.381;clean
ddm;1;0.418;clean
ddm;0;0.889;clean
ddm;1;1.475;clean
ddm;1;0.33899999999999997;clean
ddm;0;0.361;clean
ddm;0;0.508;clean
ddm;0;0.373;clean
ddm;0;0.435;clean
ddm;0;1.008;clean
ddm;0;0.423;clean
ddm;0;0.495;clean
ddm;1;0.6859999999999999;clean
ddm;1;0.608;clean
ddm;0;0.9239999999999999;clean
ddm;1;0.399;clean
ddm;1;0.5609999999999999;clean
ddm;1;0.776;clean
ddm;1;0.387;clean
ddm;1;0.361;clean
ddm;1;0.34099999999999997;clean
ddm;1;0.639;clean
ddm;1;0.34299999999999997;clean
ddm;1;0.397;clean
ddm;0;0.646;clean
ddm;1;0.641;clean
ddm;1;0.558;clean
ddm;0;1.103;clean
ddm;1;0.723;clean
ddm;1;0.408;clean
ddm;0;0.7849999999999999;clean
ddm;1;0.34099999999999997;clean
ddm;1;0.901;clean
ddm;0;0.8859999999999999;clean
ddm;1;0.534;clean
ddm;0;0.45499999999999996;clean
ddm;1;0.362;clean
ddm;0;0.413;clean
ddm;0;1.466;clean
ddm;1;0.45199999999999996;clean
ddm;0;0.835;clean
ddm;1;0.538;clean
ddm;0;0.6;clean
ddm;1;0.6559999999999999;clean
ddm;1;0.413;clean
ddm;1;0.736;clean
ddm;1;0.417;clean
ddm;1;0.44499999999999995;clean
ddm;1;0.346;clean
ddm;1;0.583;clean
ddm;1;0.393;clean
ddm;0;0.621;clean
ddm;1;0.434;clean
ddm;1;0.8;clean
ddm;0;1.326;clean
ddm;1;0.525;clean
ddm;1;0.346;clean
ddm;0;0.606;clean
ddm;1;0.413;clean
ddm;0;0.428;clean
ddm;1;0.363;clean
ddm;1;0.587;clean
ddm;1;0.392;clean
ddm;1;0.531;clean
ddm;0;0.348;clean
ddm;0;0.8260000000000001;clean
ddm;1;0.5820000000000001;clean
ddm;0;0.381;clean
ddm;1;0.423;clean
ddm;1;1.046;clean
ddm;1;0.611;clean
ddm;0;0.765;clean
ddm;1;0.361;clean
ddm;0;0.9199999999999999;clean
ddm;1;0.5429999999999999;clean
ddm;1;0.601;clean
ddm;0;0.477;clean
ddm;1;0.8660000000000001;clean
ddm;0;0.5469999999999999;clean
ddm;1;1.136;clean
ddm;1;0.362;clean
ddm;0;0.855;clean
ddm;0;0.414;clean
ddm;0;0.354;clean
ddm;1;0.388;clean
ddm;1;0.5860000000000001;clean
ddm;0;0.422;clean
ddm;0;0.378;clean
ddm;1;0.379;clean
ddm;1;0.356;clean
ddm;1;0.44599999999999995;clean
ddm;0;0.434;clean
ddm;1;0.368;noisy
ddm;1;0.476;noisy
ddm;0;0.424;noisy
ddm;1;0.45999999999999996;noisy
ddm;1;0.571;noisy
ddm;1;0.349;noisy
ddm;1;0.481;noisy
ddm;1;0.523;noisy
ddm;1;0.522;noisy
ddm;1;0.376;noisy
ddm;1;0.539;noisy
ddm;1;0.45199999999999996;noisy
ddm;0;1.294;noisy
ddm;1;0.679;noisy
ddm;1;0.48;noisy
ddm;0;0.444;noisy
ddm;0;0.742;noisy
ddm;1;0.413;noisy
ddm;1;0.531;noisy
ddm;0;0.619;noisy
ddm;0;0.421;noisy
ddm;0;0.46699999999999997;noisy
ddm;1;0.478;noisy
ddm;1;0.8720000000000001;noisy
ddm;0;0.513;noisy
ddm;1;0.893;noisy
ddm;1;0.487;noisy
ddm;1;0.513;noisy
ddm;1;0.415;noisy
ddm;1;0.402;noisy
ddm;1;0.431;noisy
ddm;1;0.776;noisy
ddm;1;0.33999999999999997;noisy
ddm;0;0.401;noisy
ddm;0;0.395;noisy
ddm;1;0.5549999999999999;noisy
ddm;1;0.401;noisy
ddm;1;0.522;noisy
ddm;1;0.45199999999999996;noisy
ddm;1;0.538;noisy
ddm;1;0.43;noisy
ddm;0;0.514;noisy
ddm;1;0.542;noisy
ddm;1;0.479;noisy
ddm;1;0.366;noisy
ddm;1;0.375;noisy
ddm;1;0.478;noisy
ddm;0;0.9259999999999999;noisy
ddm;1;0.436;noisy
ddm;0;0.382;noisy
ddm;1;0.44;noisy
ddm;1;0.8560000000000001;noisy
ddm;0;0.538;noisy
ddm;1;1.326;noisy
ddm;1;0.382;noisy
ddm;1;0.5;noisy
ddm;1;0.399;noisy
ddm;0;0.857;noisy
ddm;0;0.436;noisy
ddm;0;0.424;noisy
ddm;0;0.376;noisy
ddm;1;0.7909999999999999;noisy
ddm;0;0.857;noisy
ddm;0;0.673;noisy
ddm;1;0.499;noisy
ddm;1;0.33799999999999997;noisy
ddm;1;0.484;noisy
ddm;1;0.392;noisy
ddm;1;1.031;noisy
ddm;0;0.418;noisy
ddm;0;0.482;noisy
ddm;0;0.7849999999999999;noisy
ddm;1;0.499;noisy
ddm;0;0.619;noisy
ddm;1;0.815;noisy
ddm;0;0.489;noisy
ddm;1;0.603;noisy
ddm;0;0.517;noisy
ddm;1;0.416;noisy
ddm;0;0.596;noisy
ddm;1;0.34099999999999997;noisy
ddm;0;0.6739999999999999;noisy
ddm;0;0.7829999999999999;noisy
ddm;1;0.42;noisy
ddm;0;0.482;noisy
ddm;0;0.357;noisy
ddm;0;0.47;noisy
ddm;0;0.46599999999999997;noisy
ddm;1;0.396;noisy
ddm;1;0.443;noisy
ddm;1;0.415;noisy
ddm;1;0.512;noisy
ddm;1;0.827;noisy
ddm;1;0.504;noisy
ddm;0;0.34299999999999997;noisy
ddm;0;0.395;noisy
ddm;0;0.554;noisy
ddm;1;0.433;noisy
ddm;0;0.438;noisy
ddm;1;0.398;noisy
ddm;0;0.495;noisy
ddm;1;0.34199999999999997;noisy
ddm;0;0.56;noisy
ddm;0;0.416;noisy
ddm;0;0.495;noisy
ddm;1;0.605;noisy
ddm;0;0.617;noisy
ddm;1;0.328;noisy
ddm;1;0.415;noisy
ddm;1;0.506;noisy
ddm;0;0.46099999999999997;noisy
ddm;1;0.575;noisy
ddm;1;0.9630000000000001;noisy
ddm;1;0.51;noisy
ddm;1;0.4;noisy
ddm;1;0.407;noisy
ddm;1;0.34099999999999997;noisy
ddm;1;0.374;noisy
ddm;0;0.409;noisy
ddm;1;0.704;noisy
ddm;1;0.371;noisy
ddm;1;0.346;noisy
ddm;1;0.669;noisy
ddm;0;1.538;noisy
ddm;1;0.45299999999999996;noisy
ddm;1;0.722;noisy
ddm;1;0.393;noisy
ddm;0;0.402;noisy
ddm;1;0.376;noisy
ddm;1;0.6579999999999999;noisy
ddm;1;0.7989999999999999;noisy
ddm;1;0.571;noisy
ddm;1;0.8160000000000001;noisy
ddm;1;0.571;noisy
ddm;0;0.8660000000000001;noisy
ddm;1;0.483;noisy
ddm;1;0.599;noisy
ddm;0;0.5880000000000001;noisy
ddm;1;1.337;noisy
ddm;1;0.404;noisy
ddm;1;0.483;noisy
ddm;1;0.444;noisy
ddm;1;0.438;noisy
ddm;1;1.237;noisy
ddm;1;0.479;noisy
ddm;0;0.34199999999999997;noisy
ddm;1;0.647;noisy
ddm;1;0.385;noisy
ddm;0;0.7929999999999999;noisy
ddm;1;1.5730000000000002;noisy
ddm;0;0.746;noisy
ddm;1;0.413;noisy
ddm;1;0.515;noisy
ddm;0;0.43;noisy
ddm;0;0.375;noisy
ddm;1;0.817;noisy
ddm;1;0.364;noisy
ddm;1;0.427;noisy
ddm;1;0.618;noisy
ddm;0;0.514;noisy
ddm;0;0.361;noisy
ddm;1;0.704;noisy
ddm;1;0.407;noisy
ddm;0;0.389;noisy
ddm;0;0.472;noisy
ddm;0;0.488;noisy
ddm;1;0.471;noisy
ddm;1;0.489;noisy
ddm;1;0.389;noisy
ddm;1;0.606;noisy
ddm;1;0.418;noisy
ddm;0;0.47;noisy
ddm;0;0.352;noisy
ddm;1;0.42;noisy
ddm;1;0.45899999999999996;noisy
ddm;1;0.643;noisy
ddm;1;0.425;noisy
ddm;1;0.621;noisy
ddm;1;0.593;noisy
ddm;0;0.569;noisy
ddm;1;0.46299999999999997;noisy
ddm;1;0.37;noisy
ddm;1;0.509;noisy
ddm;0;0.8899999999999999;noisy
ddm;0;0.46199999999999997;noisy
ddm;1;0.414;noisy
ddm;0;0.9019999999999999;noisy
ddm;0;0.384;noisy
ddm;0;0.437;noisy
ddm;1;0.34099999999999997;noisy
ddm;1;0.5700000000000001;noisy
ddm;0;0.399;noisy
ddm;0;0.581;noisy
ddm;1;0.5449999999999999;noisy
ddm;1;0.33999999999999997;noisy
ddm;1;0.704;noisy
ddm;0;0.8640000000000001;noisy
ddm;1;0.436;noisy
ddm;1;0.41;noisy
ddm;1;0.725;noisy
ddm;0;0.475;noisy
ddm;0;0.52;noisy
ddm;1;0.9530000000000001;noisy
ddm;0;0.422;noisy
ddm;1;0.542;noisy
ddm;1;0.8580000000000001;noisy
ddm;0;1.4500000000000002;noisy
ddm;1;0.5660000000000001;noisy
ddm;1;0.644;noisy
ddm;0;0.548;noisy
ddm;1;0.388;noisy
ddm;0;0.634;noisy
ddm;0;0.33299999999999996;noisy
ddm;1;0.7030000000000001;noisy
ddm;1;1.044;noisy
ddm;0;0.471;noisy
ddm;1;0.9930000000000001;noisy
ddm;0;0.374;noisy
ddm;1;0.381;noisy
ddm;0;0.4;noisy
ddm;1;0.537;noisy
ddm;1;0.556;noisy
ddm;1;0.352;noisy
ddm;0;0.511;noisy
ddm;0;1.147;noisy
ddm;0;0.40499999999999997;noisy
ddm;1;0.402;noisy
ddm;1;0.567;noisy
ddm;0;0.491;noisy
ddm;1;0.414;noisy
ddm;1;0.808;noisy
ddm;1;0.748;noisy
ddm;0;0.432;noisy
ddm;1;0.391;noisy
ddm;0;0.369;noisy
ddm;0;0.439;noisy
ddm;0;0.358;noisy
ddm;0;0.796;noisy
ddm;1;0.36;noisy
ddm;1;0.508;noisy
ddm;1;0.506;noisy
ddm;1;0.44799999999999995;noisy
ddm;0;0.72;noisy
ddm;1;0.7829999999999999;noisy
ddm;1;0.506;noisy
ddm;0;0.505;noisy
ddm;1;0.571;noisy
ddm;0;0.469;noisy
ddm;0;0.534;noisy
ddm;0;0.359;noisy
ddm;0;0.367;noisy
ddm;1;0.46699999999999997;noisy
ddm;0;0.7150000000000001;noisy
ddm;1;0.642;noisy
ddm;0;0.8680000000000001;noisy
ddm;1;0.523;noisy
ddm;0;0.5429999999999999;noisy
ddm;0;0.772;noisy
ddm;0;0.5740000000000001;noisy
ddm;0;0.738;noisy
ddm;0;0.843;noisy
ddm;0;0.521;noisy
ddm;0;0.471;noisy
ddm;1;0.671;noisy
ddm;1;0.397;noisy
ddm;1;0.641;noisy
ddm;1;0.869;noisy
ddm;1;0.417;noisy
ddm;1;0.47;noisy
ddm;1;0.387;noisy
ddm;1;0.629;noisy
ddm;1;0.437;noisy
ddm;1;0.533;noisy
ddm;1;0.786;noisy
ddm;1;0.471;noisy
ddm;1;0.438;noisy
ddm;1;0.9890000000000001;noisy
ddm;1;0.382;noisy
ddm;1;0.5469999999999999;noisy
ddm;1;0.521;noisy
ddm;1;0.9450000000000001;noisy
ddm;0;0.594;noisy
ddm;0;0.6779999999999999;noisy
ddm;1;0.46799999999999997;noisy
ddm;1;0.398;noisy
ddm;1;0.877;noisy
ddm;1;0.9990000000000001;noisy
ddm;0;0.671;noisy
ddm;1;0.641;noisy
ddm;0;0.723;noisy
ddm;0;0.396;noisy
ddm;1;0.46399999999999997;noisy
ddm;1;0.40599999999999997;noisy
ddm;0;0.373;noisy
ddm;1;0.397;noisy
ddm;1;0.569;noisy
ddm;0;1.3090000000000002;noisy
ddm;1;0.526;noisy
ddm;1;0.8919999999999999;noisy
ddm;0;0.355;noisy
ddm;1;1.005;noisy
ddm;1;0.608;noisy
ddm;0;0.356;noisy
ddm;1;0.427;noisy
ddm;0;0.346;noisy
ddm;1;0.6859999999999999;noisy
ddm;0;0.418;noisy
ddm;0;0.46299999999999997;noisy
ddm;1;0.382;noisy
ddm;1;1.353;noisy
ddm;0;0.497;noisy
ddm;1;0.6890000000000001;noisy
ddm;1;1.202;noisy
ddm;1;0.7130000000000001;noisy
ddm;0;0.46599999999999997;noisy
ddm;0;0.38;noisy
ddm;1;0.774;noisy
ddm;0;0.5860000000000001;noisy
ddm;0;0.734;noisy
ddm;1;0.474;noisy
ddm;0;0.44;noisy
ddm;0;0.97;noisy
ddm;1;0.371;noisy
ddm;1;0.484;noisy
ddm;1;0.45099999999999996;noisy
ddm;1;0.389;noisy
ddm;0;0.44999999999999996;noisy
ddm;1;0.641;noisy
ddm;1;0.356;noisy
ddm;1;0.5720000000000001;noisy
ddm;1;0.575;noisy
ddm;1;0.45699999999999996;noisy
ddm;1;0.513;noisy
ddm;0;0.506;noisy
ddm;1;0.39;noisy
ddm;1;0.634;noisy
ddm;1;0.482;noisy
ddm;1;0.739;noisy
ddm;1;0.369;noisy
ddm;1;0.33699999999999997;noisy
ddm;0;0.6659999999999999;noisy
ddm;1;0.748;noisy
ddm;1;0.45299999999999996;noisy
ddm;0;0.55;noisy
ddm;1;0.418;noisy
ddm;1;0.44699999999999995;noisy
ddm;1;0.484;noisy
ddm;1;0.36;noisy
ddm;1;0.425;noisy
ddm;0;0.428;noisy
ddm;1;0.579;noisy
ddm;0;0.389;noisy
ddm;1;0.399;noisy
ddm;1;0.438;noisy
ddm;1;0.473;noisy
ddm;0;0.46799999999999997;noisy
ddm;0;0.45799999999999996;noisy
ddm;1;0.40499999999999997;noisy
ddm;1;0.474;noisy
ddm;1;0.968;noisy
ddm;1;0.487;noisy
ddm;1;0.383;noisy
ddm;1;0.573;noisy
ddm;1;0.777;noisy
ddm;1;0.433;noisy
ddm;1;0.614;noisy
ddm;1;0.40599999999999997;noisy
ddm;1;0.47;noisy
ddm;1;0.643;noisy
ddm;0;0.78;noisy
ddm;1;0.431;noisy
ddm;1;0.45599999999999996;noisy
ddm;0;0.34099999999999997;noisy
ddm;1;0.376;noisy
ddm;1;0.733;noisy
ddm;1;0.486;noisy
ddm;1;0.495;noisy
ddm;1;0.6890000000000001;noisy
ddm;0;0.577;noisy
ddm;1;0.81;noisy
ddm;0;0.488;noisy
ddm;1;0.777;noisy
ddm;0;0.503;noisy
ddm;1;0.639;noisy
ddm;1;0.8440000000000001;noisy
ddm;1;0.726;noisy
ddm;0;0.404;noisy
ddm;1;0.392;noisy
ddm;1;0.704;noisy
ddm;1;0.472;noisy
ddm;1;0.927;noisy
ddm;0;0.631;noisy
ddm;1;0.33599999999999997;noisy
ddm;0;0.659;noisy
ddm;0;0.581;noisy
ddm;0;0.379;noisy
ddm;1;0.721;noisy
ddm;0;0.33099999999999996;noisy
ddm;1;0.435;noisy
ddm;1;0.393;noisy
noise;1;1.2781184714969505;noisy
noise;1;2.3595692082815742;noisy
noise;0;1.5152480988582495;noisy
noise;1;0.5963096616041563;noisy
noise;0;1.226431968652506;noisy
noise;1;1.794469869951906;noisy
noise;1;1.7430996931403868;noisy
noise;1;0.7791844222506551;noisy
noise;0;1.6915797071652947;noisy
noise;1;2.1220126693779022;noisy
noise;0;0.30636165525250353;noisy
noise;0;1.5772429737005442;noisy
noise;0;2.313910269990599;noisy
noise;1;0.4396452153083533;noisy
noise;0;0.4378847383526226;noisy
noise;1;1.8358793712697872;noisy
noise;1;0.5457582896474915;noisy
noise;1;2.0288682148824666;noisy
noise;1;1.9315299416582548;noisy
noise;0;1.1248987266234591;noisy
noise;1;1.9920742248277707;noisy
noise;1;0.5411776254189072;noisy
noise;0;0.32390255750877484;noisy
noise;0;1.4682177544539252;noisy
noise;1;2.4285066207623975;noisy
noise;1;2.35904706776034;noisy
noise;1;1.898966241026136;noisy
noise;0;2.18327439004119;noisy
noise;0;1.3737847746283232;noisy
noise;1;1.3979443297200282;noisy
noise;0;2.4639085937777967;noisy
noise;1;1.1693843931383818;noisy
noise;0;1.0037124851360664;noisy
noise;0;1.9800699942463853;noisy
noise;1;1.9212092109572676;noisy
noise;1;0.5156012265394373;noisy
noise;0;1.7063180042388453;noisy
noise;0;0.5894685050838047;noisy
noise;1;0.7955580924211263;noisy
noise;1;2.154962203921935;noisy
noise;1;0.6538684473647636;noisy
noise;0;0.481090221672804;noisy
noise;0;1.5277223133646738;noisy
noise;0;0.7943530336154219;noisy
noise;0;2.1050093309950975;noisy
noise;1;1.4914858202263632;noisy
noise;1;0.5747997070321544;noisy
noise;0;0.6160099070869487;noisy
noise;0;1.6032003244849506;noisy
noise;0;1.37345169433529;noisy
noise;0;2.1777294695100324;noisy
noise;1;1.10504863765687;noisy
noise;0;2.1757000881226096;noisy
noise;1;2.3165208973643607;noisy
noise;0;0.5921132327882064;noisy
noise;1;0.752567221320489;noisy
noise;1;1.4107151909516524;noisy
noise;0;0.6401671286769246;noisy
noise;1;0.6539694967362207;noisy
noise;1;0.7921938477370536;noisy
noise;0;0.5917499081183384;noisy
noise;1;1.8260606676696993;noisy
noise;0;1.6915883999642818;noisy
noise;0;2.183314273918864;noisy
noise;1;1.3687908741615464;noisy
noise;0;0.8865915825975963;noisy
noise;0;2.351380175523944;noisy
noise;0;1.309118012300758;noisy
noise;0;1.777183482271273;noisy
noise;0;1.6864941941272937;noisy
noise;0;1.747554391311436;noisy
noise;0;1.4179194070789558;noisy
noise;0;1.788631734592713;noisy
noise;1;1.6166932756946921;noisy
noise;1;1.92950877920421;noisy
noise;0;2.4181433202962035;noisy
noise;1;0.5850843648069517;noisy
noise;1;1.497474599837543;noisy
noise;0;0.7636416150496805;noisy
noise;1;0.5461629024701976;noisy
noise;0;0.8115224138718025;noisy
noise;0;1.9130694349792874;noisy
noise;1;1.0774914042324162;noisy
noise;0;2.3132613335674126;noisy
noise;0;0.574489353332767;noisy
noise;0;1.281145928888794;noisy
noise;0;2.457265779016193;noisy
noise;1;2.242390057345076;noisy
noise;0;1.7968061632826642;noisy
noise;1;0.6938324489144106;noisy
noise;0;1.5372642745973149;noisy
noise;1;2.049046776575897;noisy
noise;0;1.3290976098057308;noisy
noise;1;0.7469244291803114;noisy
noise;1;1.7630844906095207;noisy
noise;0;2.201285147306932;noisy
noise;0;1.9781275314299245;noisy
noise;1;1.4814569946261265;noisy
noise;1;1.0512753009317821;noisy
noise;1;2.4788804881208675;noisy
